{
  "$schema": "https://json-schema.org/draft-07/schema",
  "$id": "https://repo-prod.prod.sagebase.org/repo/v1/schema/type/registered/org.synapse.ampals-speech-file",
  "title": "SpeechFile",
  "type": "object",
  "description": "File or folder containing speech assessment data. Covers sample-level folders (subject annotations), session-level folders (per-test SDTM annotations), and compressed audio archives (zip files of raw WAV recordings).",
  "additionalProperties": {},
  "properties": {
    "alternateName": {
      "description": "An alternate name that can be used for search and discovery improvement.",
      "items": {
        "type": "string"
      },
      "title": "Alternate Name",
      "type": "array"
    },
    "citation": {
      "description": "Citation (e.g. doi) that usage of data or resource should be cited with.",
      "items": {
        "type": "string"
      },
      "title": "Citation",
      "type": "array"
    },
    "contributor": {
      "description": "Institution or person responsible for collecting and managing the files and records in the resource.",
      "items": {
        "type": "string"
      },
      "title": "Contributor(s)",
      "type": "array"
    },
    "creator": {
      "description": "Properly formatted name of the organization or person that is creator of the resource (e.g. \"Sage Bionetworks\" or \"John Doe\"), not an id.",
      "items": {
        "type": "string"
      },
      "title": "Creator",
      "type": "array"
    },
    "curationLevel": {
      "description": "Level of data processing and curation applied to this entity.",
      "items": {
        "description": "Level of data processing and curation applied to a dataset or file",
        "title": "CurationLevelEnum",
        "type": "string",
        "anyOf": [
          {
            "enum": [
              "Raw",
              "Processed",
              "Analyzed",
              "Integrated",
              "tier1",
              "tier2",
              "tier3",
              "Standardized",
              "Partial or Combined Standardization",
              "Non-Standardized",
              "Unknown"
            ]
          },
          {
            "const": ""
          }
        ]
      },
      "title": "Curation Level",
      "type": "array"
    },
    "dataSourcePrefix": {
      "description": "Short identifier indicating the data source origin.",
      "title": "Data Source Prefix"
    },
    "dataType": {
      "description": "Speech-specific data type(s) for this file or folder",
      "items": {
        "description": "Types of speech assessment and acoustic data from digital health technology platforms and SDTM FT domain records",
        "title": "SpeechDataTypeEnum",
        "type": "string",
        "anyOf": [
          {
            "enum": [
              "raw_audio",
              "dht_speech_vitals",
              "sdtm_functional_tests",
              "aggregate_measures",
              "step_measures",
              "metadata"
            ]
          },
          {
            "const": ""
          }
        ]
      },
      "title": "Data Type",
      "type": "array"
    },
    "description": {
      "description": "Text describing a resource.",
      "type": "string"
    },
    "disease": {
      "description": "Disease(s) or condition(s) associated with the data.",
      "items": {
        "description": "",
        "title": "DiseaseEnum",
        "type": "string",
        "anyOf": [
          {
            "enum": [
              "ALS",
              "FTD",
              "Control",
              "Unknown",
              "PLS",
              "LBD",
              "AD",
              "PMA",
              "PBP",
              "Mitocondrial Myopathy",
              "PD",
              "Spastic paraparesis",
              "MSA",
              "VCP myopathy",
              "Hirayama disease",
              "Kennedy's disease",
              "Spinal muscular atrophy",
              "Other Motor Neuron Disease",
              "Other Neurological Disorders"
            ]
          },
          {
            "const": ""
          }
        ]
      },
      "title": "Disease",
      "type": "array"
    },
    "diseaseSubtype": {
      "description": "Specific disease subtypes, genetic variants, or diagnostic criteria (e.g., C9orf72, SOD1, familial).",
      "items": {
        "description": "Specific subtypes or variants of neurodegenerative diseases",
        "title": "DiseaseSubtypeEnum",
        "type": "string",
        "anyOf": [
          {
            "enum": [
              "SOD1",
              "FUS",
              "TARDBP",
              "sporadic ALS",
              "familial",
              "Unknown",
              "C9-ALS",
              "C9-FTD",
              "Asymptomatic C9",
              "SOD1-ALS",
              "Asymptomatic SOD1",
              "FUS-ALS",
              "TARDBP-ALS",
              "TDP43-ALS",
              "ANG-ALS",
              "ANXA11-ALS",
              "ARHGEF28-ALS",
              "ATXN2-ALS",
              "CFAP410-ALS",
              "CHCHD10-ALS",
              "CHMP2B-ALS",
              "DAO-ALS",
              "DCTN1-ALS",
              "ERBB4-ALS",
              "FIG4-ALS",
              "GRN-ALS",
              "PROGRANULIN-ALS",
              "HNRNPA1-ALS",
              "HNRNPA2B1-ALS",
              "KIF5A-ALS",
              "MAPT-ALS",
              "TAU-ALS",
              "MATR3-ALS",
              "MOBP-ALS",
              "NEFH-ALS",
              "NEK1-ALS",
              "Asymptomatic NEK1",
              "OPTN-ALS",
              "PFN1-ALS",
              "SETX-ALS",
              "SQSTM1-ALS",
              "TAF15-ALS",
              "TBK1-ALS",
              "TUBA4A-ALS",
              "UBQLN2-ALS",
              "UNC13A-ALS",
              "VAPB-ALS",
              "VCP-ALS",
              "ALS2-ALS",
              "ELP3-ALS",
              "EPHA4-ALS",
              "EWSR1-ALS",
              "KIKAP3-ALS",
              "PRPH-ALS",
              "SPG4-ALS",
              "SPG11-ALS",
              "Other genetic ALS",
              "ALS Spectrum MND",
              "Definite_ALS",
              "Probable_ALS",
              "Probable_ALS_Lab_Supported",
              "Possible_ALS",
              "Suspected_ALS",
              "pre-fALS",
              "MUSK Myasthenia",
              "Anxiety for ALS",
              "Atypical for GM1 ab",
              "LMND",
              "ALS- LMND (lower motor neuron dominant)",
              "UMND",
              "ALS UMN-Predominant",
              "ALS UMN-Predominant (PLS)",
              "Flail Arm",
              "Focal MND",
              "PICALS",
              "Pseudopolyneuritic form of ALS",
              "MND (unspecified, non-ALS ALS Spectrum MND), FTD",
              "Non-ALS MND, Seizures",
              "Primary lateral sclerosis (PLS) (UMN only)",
              "PLS UMN-Predominant",
              "Progressive muscular atrophy (PMA) (LMN only)",
              "PLS or PMA",
              "bvFTD",
              "Clinical FTD (behavioral variant)",
              "Clinical FTD (semantic variant)",
              "Clinical FTD (nonfluent variant)",
              "Clinical FTD (language variant NOS)",
              "Clinical FTD (motor neuron disease)",
              "Clinical FTD (NOS)",
              "Clinical FTD (PSP)",
              "Clinical FTD (corticobasal syndrome)",
              "PPA",
              "Progressive Aphasia",
              "naPPA",
              "svPPA",
              "lvPPA",
              "bvFTD, svPPA",
              "naPPA, FTD",
              "Clinical DLB (Probable)",
              "Clinical PDD",
              "Pathological FTLD NOS",
              "Pathological FTLD-TDP Type A",
              "Pathological FTLD-TDP Type B",
              "Pathological FTLD-TDP Type C",
              "Pathological FTLD-TDP Type Unknown",
              "Pathological FTLD-Tau (PSP)",
              "Pathological FTLD-Tau (Pick)",
              "Pathological FTLD-Tau (CBD)",
              "Pathological FTLD-Tau Type Unknown",
              "Pathological FTLD-FUS",
              "Pathological FTLD-U",
              "Pathological FTLD-H",
              "Pathological Neocortical DLB",
              "Pathological Limbic DLB",
              "Pathological Brain Stem DLB",
              "Pathological Amygdala DLB",
              "Pathological DLB NOS",
              "CBS",
              "PSP",
              "Huntington's Disease-like (HDL) Syndrome",
              "Vascular Dementia",
              "Dementia (NOS)",
              "HSP",
              "NEK1 Family",
              "Pre-fALS, MCI",
              "Non-Neurological Control with family history of ALS",
              "Non-Neurological Control with family history of FTD and AD",
              "Non-Neurological Control with family history of AD, FTD",
              "Classical/Typical ALS, FTD",
              "Classical/Typical ALS, AD",
              "Classical/Typical ALS, PD",
              "Classical/Typical ALS, Dementia (NOS)",
              "Classical/Typical ALS, MCI",
              "Classical/Typical ALS, bvFTD",
              "Classical/Typical ALS, AD, FTD",
              "Classical/Typical ALS, FTD, PD",
              "Classical/Typical ALS, PD, FTD",
              "Classical/Typical ALS, FTD, AD",
              "Classical/Typical ALS, AD, CTE",
              "Classical/Typical ALS, CTE",
              "Classical/Typical ALS, DLB",
              "Classical/Typical ALS, Radiculopathy",
              "Classical/Typical ALS, Peripheral Neuropathy",
              "Classical/Typical ALS, Seizure Disorder",
              "Classical/Typical ALS, Seizures",
              "Classical/Typical ALS, Partial Seizure Disorder",
              "Classical/Typical ALS, Sensory Neuropathy, Seizure",
              "Classical/Typical ALS, Myasthenia Gravis",
              "Classical/Typical ALS, MCI, Myasthenia Gravis",
              "Classical/Typical ALS, HSP, Sensorimotor Polyneuropathy",
              "Classical/Typical ALS, Chronic Axonal Polyneuropathy, Sensory Axonal Neuropathy",
              "Classical/Typical ALS, Left Ulnar Neuropathy",
              "Classical/Typical ALS, PD, Bulbar Paralysis",
              "Classical/Typical ALS, naPPA",
              "Classical/Typical ALS, bvFTD, Progressive Aphasia",
              "Classical/Typical ALS, CMT",
              "Classical/Typical ALS, AD, AGD Stage II, CAA",
              "Classical/Typical ALS, AGD Stage II-III, Cerebrovascular Disease (Not Contributing to Dementia)",
              "Classical/Typical ALS, AD, Acute Meningitis, Cerebrovascular Disease (Not Contributing to Dementia)",
              "Classical/Typical ALS, AD, Acute Hypoxic-Ischemic Changes, Hippocampus",
              "Classical/Typical ALS, Mild Diffuse Subpial Gliosis, Mild Hypertensive Vasculopathy",
              "Classical/Typical ALS, Myelomalacia of the cord at C3-C5",
              "Classical/Typical ALS, Tauopathy",
              "Classical/Typical ALS, Cognitive Problems, Memory Impairment",
              "Classical/Typical ALS, Sheehan's Syndrome",
              "Classical/Typical ALS, FTD, Metastatic Carcinoma, Superior Parietal Lobe, Left",
              "ALS, Dementia (NOS)",
              "PLS, FTD",
              "PLS, Peripheral Neuropathy",
              "PLS, Radiculopathy",
              "PLS, HDL Syndrome",
              "PMA, Diabetic Polyneuropathy",
              "PMA, Dementia (NOS)",
              "PMA",
              "Progressive Bulbar Palsy, PD",
              "FTD, PSP",
              "Dementia (NOS), Progressive Aphasia",
              "DLB, Peripheral Neuropathy",
              "IBM-myositis",
              "IBM-myopathy",
              "Dermatomyositis",
              "Polymyositis",
              "Distal Myopathy",
              "FSHD",
              "Monomelic Amyotrophy",
              "Post-Polio Syndrome",
              "Polio",
              "Radiculopathy",
              "Myelopathy",
              "Motor Neuropathy",
              "Cerebrovascular Disease (Not Contributing to Dementia)",
              "Seizure Disorder",
              "Meralgia Paresthetica",
              "Migraine (without paralysis)"
            ]
          },
          {
            "const": ""
          }
        ]
      },
      "title": "Disease Subtype",
      "type": "array"
    },
    "fileFormat": {
      "description": "Defined format of the data file, typically corresponding to extension, but sometimes indicating more general group of files produced by the same tool or software.",
      "items": {
        "description": "",
        "title": "FileFormatEnum",
        "type": "string",
        "anyOf": [
          {
            "enum": [
              "7z",
              "DICOM",
              "MATLAB data",
              "MATLAB script",
              "NWB",
              "PAR",
              "Python script",
              "R script",
              "RCC",
              "RData",
              "REC",
              "SDAT",
              "SPAR",
              "Sentrix descriptor file",
              "ab1",
              "abf",
              "ADAT",
              "ai",
              "avi",
              "bai",
              "bam",
              "bash script",
              "bcf",
              "bed",
              "bed broadPeak",
              "bed gappedPeak",
              "bed narrowPeak",
              "bedgraph",
              "bgzip",
              "bigwig",
              "bmp",
              "bpm",
              "cel",
              "chp",
              "cnn",
              "cnr",
              "cns",
              "cram",
              "crai",
              "csi",
              "csv",
              "ctab",
              "czi",
              "dat",
              "dna",
              "doc",
              "docker image",
              "dup",
              "edat3",
              "excel",
              "fasta",
              "fastq",
              "fcs",
              "fig",
              "flagstat",
              "gb",
              "gct",
              "gff3",
              "gtf",
              "gzip",
              "hdf5",
              "hdr",
              "hic",
              "html",
              "hyperlink",
              "idat",
              "idx",
              "img",
              "jpg",
              "js",
              "json",
              "lif",
              "locs",
              "maf",
              "md",
              "mov",
              "MPEG-4",
              "msf",
              "mtx",
              "mzML",
              "nii",
              "ome-tiff",
              "pdf",
              "plink",
              "png",
              "powerpoint",
              "pzfx",
              "psydat",
              "raw",
              "rds",
              "recal",
              "rmd",
              "sam",
              "sav",
              "sdf",
              "seg",
              "sf",
              "sif",
              "sqlite",
              "sra",
              "svg",
              "svs",
              "tagAlign",
              "tar",
              "tbi",
              "tif",
              "tom",
              "tranches",
              "tsv",
              "txt",
              "vcf",
              "wiggle",
              "xlsx",
              "xml",
              "yaml",
              "h5",
              "wav",
              "zip"
            ]
          },
          {
            "const": ""
          }
        ]
      },
      "title": "File Format",
      "type": "array"
    },
    "ftDtc": {
      "description": "ISO 8601 date/time when the functional test was performed (SDTM FTDTC)",
      "items": {
        "type": "string"
      },
      "title": "Date/Time of Test (FTDTC)",
      "type": "array"
    },
    "ftGrpId": {
      "description": "Group or session identifier (SDTM FTGRPID)",
      "items": {
        "type": "string"
      },
      "title": "Group ID (FTGRPID)",
      "type": "array"
    },
    "ftReasnd": {
      "description": "Reason the test was not completed. Only applicable when ftStat = \"Not Done\" (SDTM FTREASND).\n",
      "title": "Reason Not Done (FTREASND)",
      "type": "string"
    },
    "ftRefId": {
      "description": "Reference identifier; SessionID when measurement is Aggregate, STEPID when measurement is Step-level (SDTM FTREFID)\n",
      "items": {
        "type": "string"
      },
      "title": "Reference ID (FTREFID)",
      "type": "array"
    },
    "ftStat": {
      "description": "Completion status of the test. Set to \"Not Done\" when the test was not completed; leave empty or null when completed (SDTM FTSTAT).\n",
      "title": "Completion Status (FTSTAT)",
      "type": "string"
    },
    "ftStresu": {
      "description": "Standard units of measurement for test results (SDTM FTSTRESU)",
      "items": {
        "type": "string"
      },
      "title": "Standard Units (FTSTRESU)",
      "type": "array"
    },
    "ftTest": {
      "description": "Name of the speech functional test performed in this session (SDTM FTTEST)",
      "items": {
        "type": "string"
      },
      "title": "Test Name (FTTEST)",
      "type": "array"
    },
    "ftTestCd": {
      "description": "Short code for the speech functional test performed in this session (SDTM FTTESTCD)",
      "items": {
        "type": "string"
      },
      "title": "Test Code (FTTESTCD)",
      "type": "array"
    },
    "ftTstDtl": {
      "description": "Indicates whether the measurement is Aggregate (summary across all steps) or Step-level (individual step within the test) (SDTM FTTSTDTL)\n",
      "items": {
        "description": "Measurement granularity level for SDTM FT domain functional tests (FTTSTDTL)",
        "title": "FTMeasurementDetailEnum",
        "type": "string",
        "anyOf": [
          {
            "enum": [
              "Aggregate",
              "Step"
            ]
          },
          {
            "const": ""
          }
        ]
      },
      "title": "Measurement Detail (FTTSTDTL)",
      "type": "array"
    },
    "globalSubjectId": {
      "description": "Globally unique identifier for a subject across all data sources. Format: {data_source_prefix}{dataset_id}{original_subject_id}\n",
      "pattern": "^[a-zA-Z0-9_-]+$",
      "title": "Global Subject ID",
      "type": "string"
    },
    "keywords": {
      "description": "Descriptive keywords or terms for improved search and discovery.",
      "items": {
        "type": "string"
      },
      "title": "Keywords",
      "type": "array"
    },
    "neuroguid": {
      "description": "NeuroGUID identifier for the subject",
      "title": "NeuroGUID",
      "type": "string"
    },
    "neurostamps": {
      "description": "NeuroStamps identifier(s) for the subject; used to map available speech metrics from SDTM",
      "items": {
        "type": "string"
      },
      "title": "NeuroStamps",
      "type": "array"
    },
    "nihguid": {
      "description": "NIH Global Unique Identifier for the subject.",
      "title": "NIH GUID",
      "type": "string"
    },
    "originalRepository": {
      "description": "Repository or platform where this data was originally housed before ingestion into the AMP-ALS portal.",
      "items": {
        "description": "Repository or platform where data was originally housed before ingestion into the AMP-ALS portal.",
        "title": "OriginalRepositoryEnum",
        "type": "string",
        "anyOf": [
          {
            "enum": [
              "Synapse",
              "Gene Expression Omnibus",
              "dbGaP",
              "ALS Compute",
              "Critical Path Institute",
              "Target ALS",
              "Sequencing Read Archive",
              "ALL ALS",
              "Linus Health"
            ]
          },
          {
            "const": ""
          }
        ]
      },
      "title": "Original Repository",
      "type": "array"
    },
    "originalSubjectId": {
      "description": "Original subject identifier as provided by the data source.",
      "title": "Original Subject ID",
      "type": "string"
    },
    "program": {
      "description": "Research consortium(s) or program(s) that produced or funded this resource.",
      "items": {
        "description": "Research consortium or program that produced or funded the dataset.",
        "title": "ProgramEnum",
        "type": "string",
        "anyOf": [
          {
            "enum": [
              "ALS Knowledge Portal",
              "Answer ALS",
              "CReATe Consortium",
              "Genomic Translation for ALS Care (GTAC)",
              "New York Genome Center ALS Consortium",
              "National Institutes of Health",
              "Project MinE",
              "Target ALS",
              "AMP ALS",
              "ALL ALS",
              "Critical Path Institute",
              "ALS Compute"
            ]
          },
          {
            "const": ""
          }
        ]
      },
      "title": "Program",
      "type": "array"
    },
    "sameAs": {
      "description": "Another platform's URI or compact URI for this same resource. See https://www.w3.org/TR/owl-ref/#sameAs-def.",
      "title": "Same As",
      "type": "string"
    },
    "sampleType": {
      "description": "Classification of the sample (e.g. actual sample vs. control type).",
      "title": "Sample Type",
      "type": "string",
      "anyOf": [
        {
          "enum": [
            "Negative Control",
            "Plate Control",
            "Sample",
            "Sample Control"
          ]
        },
        {
          "const": ""
        }
      ]
    },
    "sdtmDomain": {
      "description": "SDTM domain abbreviation; always \"FT\" for functional test records (SDTM DOMAIN)",
      "title": "SDTM Domain (DOMAIN)",
      "type": "string"
    },
    "sessionId": {
      "description": "Session identifier used to link this session folder or archive to the corresponding SDTM FT record (corresponds to FTREFID when Aggregate).\n",
      "title": "Session ID",
      "type": "string"
    },
    "species": {
      "description": "Species of the organism(s) from which the data were generated. Omit if not applicable.",
      "items": {
        "description": "",
        "title": "SpeciesEnum",
        "type": "string",
        "anyOf": [
          {
            "enum": [
              "Rattus norvegicus",
              "Gallus gallus",
              "Pan troglodytes",
              "Mus musculus (humanized)",
              "Homo sapiens",
              "Danio rerio",
              "Drosophila melanogaster",
              "Rhesus macaque",
              "Sus scrofa",
              "Oryctolagus cuniculus",
              "Mus musculus"
            ]
          },
          {
            "const": ""
          }
        ]
      },
      "title": "Species",
      "type": "array"
    },
    "subject": {
      "description": "Applicable subject term(s) for cataloging; use the Library of Congress Subject Headings (LCSH) scheme.",
      "items": {
        "type": "string"
      },
      "title": "Subject",
      "type": "array"
    },
    "suppLoc": {
      "description": "Location where the speech session was recorded (SDTM SUPPLOC). Typically Clinical_Site for clinic-based collection or Remote/Home for remote collection.\n",
      "title": "Collection Location (SUPPLOC)",
      "type": "string",
      "anyOf": [
        {
          "enum": [
            "Clinical_Site",
            "Hospital",
            "Home",
            "Nursing_Home",
            "Other_Healthcare_Facility",
            "Remote",
            "Other"
          ]
        },
        {
          "const": ""
        }
      ]
    },
    "title": {
      "items": {
        "type": "string"
      },
      "title": "Title",
      "type": "array"
    },
    "url": {
      "description": "URL(s) for the resource, including its original location and any external data catalogs where it is listed.",
      "items": {
        "type": "string"
      },
      "title": "URL",
      "type": "array"
    },
    "vendor": {
      "description": "Vendor, laboratory, or device that generated the data.",
      "items": {
        "description": "Vendor, laboratory, or device that generated the data.",
        "title": "Vendor",
        "type": "string",
        "anyOf": [
          {
            "enum": [
              "Aural Analytics",
              "Broad",
              "ICON",
              "JHU",
              "Protavio",
              "Somalogic"
            ]
          },
          {
            "const": ""
          }
        ]
      },
      "title": "Vendor",
      "type": "array"
    }
  },
  "required": [
    "originalRepository"
  ]
}
